File: data/Scan_7_Oszillation_bei_0,1.UXD
; C:\DIFFDAT1\Praktikum\Ogasa Ruan\Scan_7_Oszillation_bei_0,1raw.raw(Diffrac Plus V1.01 file) converted by XCH V1.0
_FILEVERSION=2
_SITE='Deutschland'
_USER='Administrator'
_GONIOMETER_CODE=4885
; D8 Theta/Theta; Special
_SAMPLE_CHANGER_CODE=0
_ATTACHMENTS_CODE=0
_GONIOMETER_RADIUS=350
_FIXED_DIVSLIT=0.600000
_FIXED_SAMPLESLIT=0.000000
_FIXED_DETSLIT=11.66
_MONOCHROMATOR=0
; None
_THIN_FILM='N'
_BETA_FILTER='Y'
_FIXED_ANTISLIT=8.340000
_ANALYZER_CODE=0
; None
_DATEMEASURED='19-Jun-2023 13:22:26'
_WL_UNIT='A'
_WL1=1.540600
_WL2=1.544390
_WL3=1.392220
_WLRATIO=0.500000
_ANODE='Cu'
; (Data for Range number 1)
_DRIVE='THETA'
_STEPTIME=5.000660
_STEPSIZE=0.005000
_STEPMODE='C'
_START=0.000000
_THETA=0.000000
_2THETA=0.100000
_KHI=0.000000
_PHI=90
_X=0.000000
_Y=1.300000
_Z=0.260000
_DIVERGENCE=0.000000
_ANTISCATTER=0.000000
_DETECTOR=5
_DETECTORSLIT='unkn'
_AUX1=0.000000
_AUX2=0.000000
_AUX3=0.000000
_TIMESTARTED=4.000000
_TEMP_RATE=-1.000000
_TEMP_DELAY=-1.000000
_KV=40
_MA=35
_RANGE_WL=1.540600
_3DPLANE=0
_GONIOMETER=0.097500
_PSDCHANNEL0=0
_2THETACOUNTS
   0.0000    379920
   0.0050    286347
   0.0100    225584
   0.0150    172574
   0.0200    134088
   0.0250    111022
   0.0300     98578
   0.0350     99458
   0.0400     90574
   0.0450     77972
   0.0500     73753
   0.0550     71175
   0.0600     67941
   0.0650     68305
   0.0700     69791
   0.0750     72380
   0.0800     75417
   0.0850     81267
   0.0900     88318
   0.0950     93924
   0.1000     96679
   0.1050    101126
   0.1100    106216
   0.1150    108256
   0.1200    104194
   0.1250    101852
   0.1300    102271
   0.1350    103785
   0.1400    101659
   0.1450     94488
   0.1500     83710
   0.1550     71691
   0.1600     59357
   0.1650     47803
   0.1700     38260
   0.1750     30980
   0.1800     26298
   0.1850     23188
   0.1900     20724
   0.1950     18806
   0.2000     16452
   0.2050     14277
   0.2100     11872
   0.2150      9746
   0.2200      8027
   0.2250      6584
   0.2300      5883
   0.2350      5435
   0.2400      4928
   0.2450      4460
   0.2500      3808
   0.2550      3204
   0.2600      2633
   0.2650      2085
   0.2700      1834
   0.2750      1798
   0.2800      1796
   0.2850      1812
   0.2900      1792
   0.2950      1643
   0.3000      1522
   0.3050      1328
   0.3100      1102
   0.3150       911
   0.3200       891
   0.3250       852
   0.3300       910
   0.3350       938
   0.3400       990
   0.3450       891
   0.3500       858
   0.3550       737
   0.3600       582
   0.3650       534
   0.3700       529
   0.3750       511
   0.3800       508
   0.3850       526
   0.3900       551
   0.3950       608
   0.4000       500
   0.4050       503
   0.4100       435
   0.4150       358
   0.4200       325
   0.4250       317
   0.4300       313
   0.4350       388
   0.4400       363
   0.4450       379
   0.4500       369
   0.4550       324
   0.4600       297
   0.4650       290
   0.4700       255
   0.4750       208
   0.4800       217
   0.4850       240
   0.4900       259
   0.4950       267
   0.5000       246
   0.5050       208
   0.5100       211
   0.5150       196
   0.5200       183
   0.5250       157
   0.5300       161
   0.5350       148
   0.5400       168
   0.5450       194
   0.5500       185
   0.5550       191
   0.5600       149
   0.5650       155
   0.5700       130
   0.5750       111
   0.5800       116
   0.5850       133
   0.5900       140
   0.5950       169
   0.6000       136
   0.6050       141
   0.6100       119
   0.6150       122
   0.6200       124
   0.6250        87
   0.6300        92
   0.6350        93
   0.6400        88
   0.6450        85
   0.6500       101
   0.6550       111
   0.6600       112
   0.6650        93
   0.6700        90
   0.6750        80
   0.6800        68
   0.6850        72
   0.6900        67
   0.6950        52
   0.7000        76
   0.7050        88
   0.7100        79
   0.7150        84
   0.7200        66
   0.7250        67
   0.7300        54
   0.7350        46
   0.7400        58
   0.7450        47
   0.7500        62
   0.7550        59
   0.7600        58
   0.7650        53
   0.7700        58
   0.7750        59
   0.7800        51
   0.7850        54
   0.7900        41
   0.7950        47
   0.8000        39
   0.8050        36
   0.8100        49
   0.8150        43
   0.8200        37
   0.8250        42
   0.8300        33
   0.8350        43
   0.8400        23
   0.8450        34
   0.8500        36
   0.8550        17
   0.8600        38
   0.8650        38
   0.8700        42
   0.8750        50
   0.8800        24
   0.8850        30
   0.8900        38
   0.8950        34
   0.9000        35
   0.9050        34
   0.9100        35
   0.9150        26
   0.9200        26
   0.9250        35
   0.9300        27
   0.9350        27
   0.9400        37
   0.9450        34
   0.9500        17
   0.9550        34
   0.9600        36
   0.9650        31
   0.9700        30
   0.9750        45
   0.9800        33
   0.9850        32
   0.9900        30
   0.9950        31
   1.0000        16
   1.0050        12
   1.0100        21
   1.0150        20
   1.0200        11
   1.0250        14
   1.0300        10
   1.0350        10
   1.0400        19
   1.0450        17
   1.0500        10
   1.0550        16
   1.0600        12
   1.0650         8
   1.0700        10
   1.0750        15
   1.0800        10
   1.0850        10
   1.0900        14
   1.0950        12
   1.1000        13
   1.1050        16
   1.1100        12
   1.1150         9
   1.1200         8
   1.1250         8
   1.1300         6
   1.1350        14
   1.1400         6
   1.1450         5
   1.1500        10
   1.1550         5
   1.1600         8
   1.1650        10
   1.1700         7
   1.1750         2
   1.1800         5
   1.1850        13
   1.1900         4
   1.1950        12
   1.2000         2
   1.2050         7
   1.2100        11
   1.2150         9
   1.2200         3
   1.2250         8
   1.2300         4
   1.2350         4
   1.2400         8
   1.2450         5
   1.2500         4
   1.2550         8
   1.2600         4
   1.2650         6
   1.2700         2
   1.2750         3
   1.2800        10
   1.2850         8
   1.2900         6
   1.2950         4
   1.3000         5
   1.3050         4
   1.3100         3
   1.3150         7
   1.3200         2
   1.3250         4
   1.3300         4
   1.3350         2
   1.3400         0
   1.3450         6
   1.3500         4
   1.3550         3
   1.3600         6
   1.3650         9
   1.3700         5
   1.3750         2
   1.3800         3
   1.3850         2
   1.3900         4
   1.3950         2
   1.4000         1
   1.4050         2
   1.4100         4
   1.4150         5
   1.4200         3
   1.4250         3
   1.4300         3
   1.4350         2
   1.4400         1
   1.4450         0
   1.4500         3
   1.4550         2
   1.4600         1
   1.4650         4
   1.4700         1
   1.4750         2
   1.4800         2
   1.4850         4
   1.4900         1
   1.4950         2
   1.5000         2
   1.5050         0
   1.5100         3
   1.5150         0
   1.5200         2
   1.5250         2
   1.5300         1
   1.5350         1
   1.5400         0
   1.5450         0
   1.5500         2
   1.5550         0
   1.5600         3
   1.5650         1
   1.5700         1
   1.5750         2
   1.5800         3
   1.5850         3
   1.5900         0
   1.5950         1
   1.6000         4
   1.6050         0
   1.6100         3
   1.6150         2
   1.6200         1
   1.6250         1
   1.6300         0
   1.6350         1
   1.6400         0
   1.6450         1
   1.6500         3
   1.6550         0
   1.6600         2
   1.6650         1
   1.6700         0
   1.6750         1
   1.6800         1
   1.6850         1
   1.6900         1
   1.6950         3
   1.7000         1
   1.7050         2
   1.7100         1
   1.7150         0
   1.7200         1
   1.7250         2
   1.7300         1
   1.7350         1
   1.7400         0
   1.7450         0
   1.7500         0
   1.7550         0
   1.7600         0
   1.7650         0
   1.7700         1
   1.7750         1
   1.7800         1
   1.7850         1
   1.7900         1
   1.7950         1
   1.8000         1
   1.8050         0
   1.8100         0
   1.8150         1
   1.8200         1
   1.8250         2
   1.8300         3
   1.8350         0
   1.8400         0
   1.8450         0
   1.8500         3
   1.8550         0
   1.8600         0
   1.8650         0
   1.8700         2
   1.8750         1
   1.8800         0
   1.8850         1
   1.8900         1
   1.8950         1
   1.9000         0
   1.9050         1
   1.9100         1
   1.9150         1
   1.9200         0
   1.9250         0
   1.9300         0
   1.9350         2
   1.9400         0
   1.9450         0
   1.9500         1
   1.9550         0
   1.9600         0
   1.9650         0
   1.9700         0
   1.9750         1
   1.9800         0
   1.9850         1
   1.9900         0
   1.9950         0
   2.0000         2
   2.0050         0
   2.0100         0
   2.0150         0
   2.0200         0
   2.0250         0
   2.0300         0
   2.0350         0
   2.0400         1
   2.0450         1
   2.0500         0
   2.0550         1
   2.0600         0
   2.0650         0
   2.0700         1
   2.0750         2
   2.0800         0
   2.0850         0
   2.0900         0
   2.0950         1
   2.1000         0
   2.1050         0
   2.1100         1
   2.1150         0
   2.1200         1
   2.1250         2
   2.1300         0
   2.1350         0
   2.1400         1
   2.1450         1
   2.1500         0
   2.1550         0
   2.1600         0
   2.1650         0
   2.1700         1
   2.1750         0
   2.1800         0
   2.1850         0
   2.1900         0
   2.1950         0
   2.2000         1
   2.2050         0
   2.2100         0
   2.2150         1
   2.2200         3
   2.2250         0
   2.2300         1
   2.2350         0
   2.2400         1
   2.2450         1
   2.2500         0
   2.2550         1
   2.2600         0
   2.2650         0
   2.2700         0
   2.2750         0
   2.2800         1
   2.2850         1
   2.2900         1
   2.2950         0
   2.3000         2
   2.3050         0
   2.3100         0
   2.3150         0
   2.3200         0
   2.3250         0
   2.3300         0
   2.3350         0
   2.3400         0
   2.3450         0
   2.3500         0
   2.3550         1
   2.3600         2
   2.3650         0
   2.3700         0
   2.3750         1
   2.3800         0
   2.3850         0
   2.3900         1
   2.3950         0
   2.4000         1
   2.4050         0
   2.4100         1
   2.4150         1
   2.4200         1
   2.4250         0
   2.4300         0
   2.4350         1
   2.4400         2
   2.4450         0
   2.4500         0
   2.4550         1
   2.4600         0
   2.4650         0
   2.4700         0
   2.4750         0
   2.4800         0
   2.4850         0
   2.4900         0
   2.4950         0
   2.5000         0