File: data/Scan_6_Oszillation_bei_0.UXD
; C:\DIFFDAT1\Praktikum\Ogasa Ruan\Scan_6_Oszillation_bei_0.raw(Diffrac Plus V1.01 file) converted by XCH V1.0
_FILEVERSION=2
_SITE='Deutschland'
_USER='Administrator'
_GONIOMETER_CODE=4885
; D8 Theta/Theta; Special
_SAMPLE_CHANGER_CODE=0
_ATTACHMENTS_CODE=0
_GONIOMETER_RADIUS=350
_FIXED_DIVSLIT=0.600000
_FIXED_SAMPLESLIT=0.000000
_FIXED_DETSLIT=11.66
_MONOCHROMATOR=0
; None
_THIN_FILM='N'
_BETA_FILTER='Y'
_FIXED_ANTISLIT=8.340000
_ANALYZER_CODE=0
; None
_DATEMEASURED='19-Jun-2023 12:14:39'
_WL_UNIT='A'
_WL1=1.540600
_WL2=1.544390
_WL3=1.392220
_WLRATIO=0.500000
_ANODE='Cu'
; (Data for Range number 1)
_DRIVE='THETA'
_STEPTIME=5.000660
_STEPSIZE=0.005000
_STEPMODE='C'
_START=0.000000
_THETA=0.000000
_2THETA=0.000000
_KHI=0.000000
_PHI=90
_X=0.000000
_Y=1.300000
_Z=0.260000
_DIVERGENCE=0.000000
_ANTISCATTER=0.000000
_DETECTOR=5
_DETECTORSLIT='unkn'
_AUX1=0.000000
_AUX2=0.000000
_AUX3=0.000000
_TIMESTARTED=2.000000
_TEMP_RATE=-1.000000
_TEMP_DELAY=-1.000000
_KV=40
_MA=35
_RANGE_WL=1.540600
_3DPLANE=0
_GONIOMETER=-0.002400
_PSDCHANNEL0=0
_2THETACOUNTS
   0.0000    727874
   0.0050   1087320
   0.0100   1426650
   0.0150   1845710
   0.0200   2231930
   0.0250   2356890
   0.0300   2095980
   0.0350   1497950
   0.0400    971273
   0.0450    603933
   0.0500    445331
   0.0550    328719
   0.0600    266360
   0.0650    215617
   0.0700    177941
   0.0750    158681
   0.0800    149403
   0.0850    153951
   0.0900    152138
   0.0950    144505
   0.1000    146108
   0.1050    150459
   0.1100    153283
   0.1150    158885
   0.1200    167338
   0.1250    174446
   0.1300    183271
   0.1350    189618
   0.1400    200794
   0.1450    209728
   0.1500    220547
   0.1550    231052
   0.1600    241568
   0.1650    251326
   0.1700    261743
   0.1750    271889
   0.1800    279770
   0.1850    278167
   0.1900    276561
   0.1950    281659
   0.2000    285690
   0.2050    288596
   0.2100    292993
   0.2150    298935
   0.2200    308096
   0.2250    310866
   0.2300    306003
   0.2350    295076
   0.2400    281024
   0.2450    258754
   0.2500    220451
   0.2550    174508
   0.2600    128334
   0.2650     86208
   0.2700     59076
   0.2750     44598
   0.2800     38662
   0.2850     36375
   0.2900     33901
   0.2950     30030
   0.3000     24080
   0.3050     18588
   0.3100     14175
   0.3150     12089
   0.3200     11631
   0.3250     12019
   0.3300     12464
   0.3350     12180
   0.3400     11032
   0.3450      9105
   0.3500      7405
   0.3550      6132
   0.3600      5386
   0.3650      5347
   0.3700      5677
   0.3750      6226
   0.3800      6142
   0.3850      5652
   0.3900      5082
   0.3950      4236
   0.4000      3500
   0.4050      3217
   0.4100      3170
   0.4150      3164
   0.4200      3393
   0.4250      3525
   0.4300      3415
   0.4350      3128
   0.4400      2857
   0.4450      2321
   0.4500      2076
   0.4550      1955
   0.4600      1990
   0.4650      2131
   0.4700      2163
   0.4750      2202
   0.4800      2151
   0.4850      1899
   0.4900      1797
   0.4950      1606
   0.5000      1438
   0.5050      1414
   0.5100      1338
   0.5150      1457
   0.5200      1513
   0.5250      1470
   0.5300      1386
   0.5350      1289
   0.5400      1178
   0.5450      1035
   0.5500       936
   0.5550      1024
   0.5600      1008
   0.5650      1043
   0.5700      1026
   0.5750      1041
   0.5800       957
   0.5850       958
   0.5900       863
   0.5950       742
   0.6000       712
   0.6050       779
   0.6100       701
   0.6150       703
   0.6200       799
   0.6250       754
   0.6300       711
   0.6350       652
   0.6400       617
   0.6450       581
   0.6500       570
   0.6550       530
   0.6600       560
   0.6650       563
   0.6700       526
   0.6750       561
   0.6800       531
   0.6850       512
   0.6900       489
   0.6950       411
   0.7000       402
   0.7050       389
   0.7100       407
   0.7150       422
   0.7200       454
   0.7250       403
   0.7300       388
   0.7350       369
   0.7400       364
   0.7450       305
   0.7500       346
   0.7550       295
   0.7600       294
   0.7650       292
   0.7700       345
   0.7750       290
   0.7800       290
   0.7850       260
   0.7900       304
   0.7950       268
   0.8000       254
   0.8050       220
   0.8100       244
   0.8150       247
   0.8200       244
   0.8250       232
   0.8300       234
   0.8350       226
   0.8400       234
   0.8450       201
   0.8500       188
   0.8550       187
   0.8600       198
   0.8650       181
   0.8700       180
   0.8750       192
   0.8800       177
   0.8850       166
   0.8900       175
   0.8950       173
   0.9000       155
   0.9050       144
   0.9100       140
   0.9150       155
   0.9200       147
   0.9250       150
   0.9300       133
   0.9350       162
   0.9400       127
   0.9450       135
   0.9500       135
   0.9550       125
   0.9600       111
   0.9650       120
   0.9700       108
   0.9750       118
   0.9800       130
   0.9850       128
   0.9900       108
   0.9950       129
   1.0000       125
   1.0050       120
   1.0100       105
   1.0150       108
   1.0200        92
   1.0250        88
   1.0300        82
   1.0350       101
   1.0400       117
   1.0450        90
   1.0500        88
   1.0550        73
   1.0600        80
   1.0650        74
   1.0700        64
   1.0750        75
   1.0800        59
   1.0850        70
   1.0900        58
   1.0950        59
   1.1000        61
   1.1050        57
   1.1100        47
   1.1150        55
   1.1200        50
   1.1250        53
   1.1300        63
   1.1350        55
   1.1400        62
   1.1450        51
   1.1500        71
   1.1550        54
   1.1600        42
   1.1650        43
   1.1700        44
   1.1750        35
   1.1800        44
   1.1850        36
   1.1900        41
   1.1950        38
   1.2000        63
   1.2050        37
   1.2100        40
   1.2150        35
   1.2200        45
   1.2250        39
   1.2300        42
   1.2350        32
   1.2400        32
   1.2450        37
   1.2500        28
   1.2550        44
   1.2600        34
   1.2650        20
   1.2700        40
   1.2750        32
   1.2800        16
   1.2850        33
   1.2900        27
   1.2950        26
   1.3000        23
   1.3050        25
   1.3100        29
   1.3150        23
   1.3200        21
   1.3250        13
   1.3300        21
   1.3350        19
   1.3400        27
   1.3450        16
   1.3500        26
   1.3550        15
   1.3600        20
   1.3650        24
   1.3700        15
   1.3750        18
   1.3800        15
   1.3850        10
   1.3900        16
   1.3950        16
   1.4000        13
   1.4050        20
   1.4100        15
   1.4150        11
   1.4200        16
   1.4250        10
   1.4300        12
   1.4350        14
   1.4400        12
   1.4450        14
   1.4500        11
   1.4550        16
   1.4600        10
   1.4650        13
   1.4700        17
   1.4750         8
   1.4800         5
   1.4850        12
   1.4900         5
   1.4950        10
   1.5000        13
   1.5050        12
   1.5100        14
   1.5150         8
   1.5200        11
   1.5250         6
   1.5300         8
   1.5350        10
   1.5400        12
   1.5450        11
   1.5500         7
   1.5550         9
   1.5600         6
   1.5650         9
   1.5700        10
   1.5750         8
   1.5800         8
   1.5850         7
   1.5900         3
   1.5950         8
   1.6000        11
   1.6050         3
   1.6100         8
   1.6150         8
   1.6200         4
   1.6250        11
   1.6300         4
   1.6350         1
   1.6400         7
   1.6450         5
   1.6500         1
   1.6550         3
   1.6600         6
   1.6650         3
   1.6700         2
   1.6750         7
   1.6800         7
   1.6850         5
   1.6900         7
   1.6950         6
   1.7000         9
   1.7050         2
   1.7100         7
   1.7150         3
   1.7200         3
   1.7250         2
   1.7300         5
   1.7350         3
   1.7400         5
   1.7450         6
   1.7500         4
   1.7550         3
   1.7600         2
   1.7650         7
   1.7700         3
   1.7750         3
   1.7800         7
   1.7850         7
   1.7900         2
   1.7950         6
   1.8000         4
   1.8050         1
   1.8100         3
   1.8150         2
   1.8200         5
   1.8250         0
   1.8300         4
   1.8350         3
   1.8400         4
   1.8450         3
   1.8500         2
   1.8550         6
   1.8600         3
   1.8650         3
   1.8700         5
   1.8750         2
   1.8800         3
   1.8850         4
   1.8900         2
   1.8950         2
   1.9000         3
   1.9050         3
   1.9100         2
   1.9150         1
   1.9200         4
   1.9250         3
   1.9300         3
   1.9350         3
   1.9400         2
   1.9450         3
   1.9500         4
   1.9550         1
   1.9600         0
   1.9650         2
   1.9700         2
   1.9750         0
   1.9800         2
   1.9850         6
   1.9900         2
   1.9950         3
   2.0000         2
   2.0050         1
   2.0100         2
   2.0150         1
   2.0200         1
   2.0250         2
   2.0300         2
   2.0350         2
   2.0400         1
   2.0450         0
   2.0500         2
   2.0550         4
   2.0600         3
   2.0650         1
   2.0700         1
   2.0750         1
   2.0800         3
   2.0850         2
   2.0900         2
   2.0950         2
   2.1000         3
   2.1050         1
   2.1100         3
   2.1150         3
   2.1200         2
   2.1250         0
   2.1300         1
   2.1350         0
   2.1400         0
   2.1450         2
   2.1500         1
   2.1550         0
   2.1600         0
   2.1650         0
   2.1700         2
   2.1750         1
   2.1800         1
   2.1850         0
   2.1900         1
   2.1950         3
   2.2000         2
   2.2050         1
   2.2100         2
   2.2150         0
   2.2200         1
   2.2250         1
   2.2300         0
   2.2350         0
   2.2400         1
   2.2450         0
   2.2500         0
   2.2550         0
   2.2600         2
   2.2650         0
   2.2700         4
   2.2750         1
   2.2800         1
   2.2850         1
   2.2900         4
   2.2950         1
   2.3000         0
   2.3050         0
   2.3100         0
   2.3150         0
   2.3200         2
   2.3250         2
   2.3300         0
   2.3350         0
   2.3400         0
   2.3450         1
   2.3500         3
   2.3550         1
   2.3600         0
   2.3650         1
   2.3700         1
   2.3750         1
   2.3800         0
   2.3850         1
   2.3900         1
   2.3950         0
   2.4000         1
   2.4050         2
   2.4100         1
   2.4150         0
   2.4200         0
   2.4250         1
   2.4300         0
   2.4350         0
   2.4400         0
   2.4450         1
   2.4500         0
   2.4550         0
   2.4600         0
   2.4650         1
   2.4700         0
   2.4750         0
   2.4800         1
   2.4850         2
   2.4900         0
   2.4950         0
   2.5000         0